{
  "resourceType": "Bundle",
  "id": "Patient-5-NUMERPass-SBP139DBP89DuringMP",
  "type": "transaction",
  "entry": [
    {
      "resource": {
        "resourceType": "Patient",
        "id": "Patient-5",
        "meta": {
          "profile": [
            "http://hl7.org/fhir/us/core/StructureDefinition/us-core-patient"
          ]
        },
        "extension": [
          {
            "url": "http://hl7.org/fhir/us/core/StructureDefinition/us-core-race",
            "extension": [
              {
                "url": "ombCategory",
                "valueCoding": {
                  "code": "2028-9",
                  "system": "urn:oid:2.16.840.1.113883.6.238",
                  "display": "Asian"
                }
              }
            ]
          },
          {
            "url": "http://hl7.org/fhir/us/core/StructureDefinition/us-core-ethnicity",
            "extension": [
              {
                "url": "ombCategory",
                "valueCoding": {
                  "code": "2135-2",
                  "system": "urn:oid:2.16.840.1.113883.6.238",
                  "display": "Hispanic or Latino"
                }
              }
            ]
          }
        ],
        "identifier": [
          {
            "system": "http://hospital.smarthealthit.org",
            "value": "999999995"
          }
        ],
        "name": [
          {
            "family": "Bertha",
            "given": [
              "Betty"
            ]
          }
        ],
        "birthDate": "2005-12-31",
        "gender": "female"
      }
    },
    {
      "resource": {
        "resourceType": "Encounter",
        "id": "Encounter-5",
        "subject": {
          "reference": "Patient/Patient-5"
        },
        "status": "finished",
        "class": {
          "code": "AMB",
          "system": "http://terminology.hl7.org/CodeSystem/v3-ActCode",
          "display": "ambulatory"
        },
        "type": [
          {
            "coding": [
              {
                "code": "3391000175108",
                "system": "http://snomed.info/sct",
                "display": "Office visit for pediatric care and assessment (procedure)"
              }
            ]
          }
        ],
        "period": {
          "start": "2023-01-01T00:00:00.000Z",
          "end": "2023-01-01T01:00:00.000Z"
        }
      }
    },
    {
      "resource": {
        "resourceType": "Condition",
        "id": "Condition-5",
        "subject": {
          "reference": "Patient/Patient-5"
        },
        "code": {
          "coding": [
            {
              "code": "371125006",
              "system": "http://snomed.info/sct",
              "display": "Labile essential hypertension (disorder)"
            }
          ]
        },
        "onsetDateTime": "2023-06-30T23:59:59.000Z",
        "clinicalStatus": {
          "coding": [
            {
              "code": "active",
              "system": "http://terminology.hl7.org/CodeSystem/condition-clinical"
            }
          ]
        }
      }
    },
    {
      "resource": {
        "resourceType": "Observation",
        "id": "Observation-5",
        "meta": {
          "profile": [
            "http://hl7.org/fhir/StructureDefinition/vitalsigns"
          ]
        },
        "category": [
          {
            "coding": [
              {
                "system": "http://terminology.hl7.org/CodeSystem/observation-category",
                "code": "vital-signs"
              }
            ]
          }
        ],
        "subject": {
          "reference": "Patient/Patient-5"
        },
        "code": {
          "coding": [
            {
              "code": "85354-9",
              "system": "http://loinc.org",
              "display": "Blood pressure panel with all children optional"
            }
          ]
        },
        "component": [
          {
            "code": {
              "coding": [
                {
                  "code": "8480-6",
                  "system": "http://loinc.org",
                  "display": "Systolic blood pressure"
                }
              ]
            },
            "valueQuantity": {
              "value": 139,
              "code": "mm[Hg]",
              "system": "http://unitsofmeasure.org",
              "unit": "mmHg"
            }
          },
          {
            "code": {
              "coding": [
                {
                  "code": "8462-4",
                  "system": "http://loinc.org",
                  "display": "Diastolic blood pressure"
                }
              ]
            },
            "valueQuantity": {
              "value": 89,
              "code": "mm[Hg]",
              "system": "http://unitsofmeasure.org",
              "unit": "mmHg"
            }
          }
        ],
        "status": "final",
        "effectiveDateTime": "2023-01-01T00:00:00.000Z",
        "encounter": {
          "reference": "Encounter/Encounter-5-1"
        }
      }
    },
    {
      "resource": {
        "resourceType": "Encounter",
        "id": "Encounter-5-1",
        "subject": {
          "reference": "Patient/Patient-5"
        },
        "status": "finished",
        "class": {
          "code": "AMB",
          "system": "http://terminology.hl7.org/CodeSystem/v3-ActCode",
          "display": "ambulatory"
        },
        "period": {
          "start": "2023-01-01T00:00:00.000Z",
          "end": "2023-01-01T01:00:00.000Z"
        }
      }
    }
  ]
}
