{
  "id": "DENEXPassMedTPAEDStart",
  "resourceType": "Bundle",
  "type": "collection",
  "entry": [
    {
      "fullUrl": "DENEXPassMedTPAEDStart",
      "resource": {
        "id": "DENEXPassMedTPAEDStart",
        "meta": {
          "profile": [
            "http://hl7.org/fhir/us/qicore/StructureDefinition/qicore-patient"
          ]
        },
        "resourceType": "Patient",
        "text": {
          "status": "generated",
          "div": "<div xmlns=\"http://www.w3.org/1999/xhtml\"><div class=\"hapiHeaderText\">Med1TPA=EdStart <b>DENEXPASS </b></div><table class=\"hapiPropertyTable\"><tbody><tr><td>Identifier</td><td>b9d60025f1579fc69f692d96d60444be</td></tr><tr><td>Date of birth</td><td><span>26 September 1975</span></td></tr></tbody></table></div>"
        },
        "extension": [
          {
            "extension": [
              {
                "url": "ombCategory",
                "valueCoding": {
                  "system": "urn:oid:2.16.840.1.113883.6.238",
                  "code": "2054-5",
                  "display": "Black or African American",
                  "userSelected": true
                }
              },
              {
                "url": "text",
                "valueString": "Black or African American"
              }
            ],
            "url": "http://hl7.org/fhir/us/core/StructureDefinition/us-core-race"
          },
          {
            "extension": [
              {
                "url": "ombCategory",
                "valueCoding": {
                  "system": "urn:oid:2.16.840.1.113883.6.238",
                  "code": "2186-5",
                  "display": "Not Hispanic or Latino",
                  "userSelected": true
                }
              },
              {
                "url": "text",
                "valueString": "Not Hispanic or Latino"
              }
            ],
            "url": "http://hl7.org/fhir/us/core/StructureDefinition/us-core-ethnicity"
          }
        ],
        "identifier": [
          {
            "type": {
              "coding": [
                {
                  "system": "http://terminology.hl7.org/CodeSystem/v2-0203",
                  "code": "MR"
                }
              ]
            },
            "system": "https://bonnie-fhir.healthit.gov/",
            "value": "DENEXPassMedTPAEDStart"
          }
        ],
        "active": true,
        "name": [
          {
            "use": "usual",
            "family": "DENEXPass",
            "given": [
              "Med1TPA=EdStart"
            ]
          }
        ],
        "gender": "female",
        "birthDate": "1975-09-26"
      }
    },
    {
      "fullUrl": "5c954893b848462de0ae624d",
      "resource": {
        "id": "5c954893b848462de0ae624d",
        "resourceType": "Encounter",
        "meta": {
          "profile": [
            "http://hl7.org/fhir/us/qicore/StructureDefinition/qicore-encounter"
          ]
        },
        "status": "finished",
				"class": {
					"code": "EMER",
					"system": "http://terminology.hl7.org/CodeSystem/v3-ActCode",
					"display": "emergency",
					"userSelected": true
				},
				"type": [
          {
            "coding": [
              {
                "system": "http://snomed.info/sct",
                "code": "4525004"
              }
            ]
          }
        ],
        "subject": {
          "reference": "Patient/DENEXPassMedTPAEDStart"
        },
        "period": {
          "start": "2022-10-10T06:00:00+00:00",
          "end": "2022-10-10T08:30:00+00:00"
        },
        "length": {
          "value": 0.0,
          "unit": "days"
        }
      }
    },
    {
      "fullUrl": "5c954893b848462de0ae624e",
      "resource": {
        "id": "5c954893b848462de0ae624e",
        "resourceType": "Encounter",
        "meta": {
          "profile": [
            "http://hl7.org/fhir/us/qicore/StructureDefinition/qicore-encounter"
          ]
        },
        "status": "finished",
        "class": {
                "system": "http://terminology.hl7.org/CodeSystem/v3-ActCode",
                "code": "IMP",
                "display": "inpatient encounter"
        },
        "type": [
          {
            "coding": [
              {
                "system": "http://snomed.info/sct",
                "code": "32485007"
              }
            ]
          }
        ],
        "subject": {
          "reference": "Patient/DENEXPassMedTPAEDStart"
        },
        "period": {
          "start": "2022-10-10T09:00:00+00:00",
          "end": "2022-10-12T11:15:00+00:00"
        },
        "length": {
          "value": 2.0,
          "unit": "days"
        },
        "diagnosis": [
          {
            "condition": {
              "reference": "Condition/ischemic-stroke-2d60"
            },
            "use": {
              "coding": [
                {
                  "system": "http://snomed.info/sct",
                  "code": "111297002",
                  "display": "Ischemic Stroke"
                }
              ]
            },
            "rank": 1
          }
        ]
      }
    },
    {
      "fullUrl": "5c954893b848462de0ae6250",
      "resource": {
        "id": "5c954893b848462de0ae6250",
        "resourceType": "MedicationAdministration",
        "meta" : {
          "profile" : [
            "http://hl7.org/fhir/us/qicore/StructureDefinition/qicore-medicationadministration"
          ]
        },
        "status": "completed",
        "medicationCodeableConcept": {
          "coding": [
            {
              "system": "http://www.nlm.nih.gov/research/umls/rxnorm",
              "code": "1804799"
            }
          ]
        },
        "subject": {
          "reference": "Patient/DENEXPassMedTPAEDStart"
        },
        "effectivePeriod": {
          "start": "2022-10-10T06:00:00+00:00"
        }
      }
    },
    {
      "fullUrl": "5e20a36c1c76ba6c5896ebe7",
      "resource": {
        "id": "5e20a36c1c76ba6c5896ebe7",
        "resourceType": "Coverage",
        "status": "active",
        "payor": [{
            "reference": "Patient/60f82c2d98086b570510e250"
        }],
        "beneficiary": {
          "reference": "Patient/DENEXPassMedTPAEDStart"
        },
        "period": {
          "start": "1975-09-26T08:00:00+00:00"
        }
      }
    },
    {
      "fullUrl": "ischemic-stroke-2d60",
      "resource": {
        "id": "ischemic-stroke-2d60",
        "resourceType": "Condition",
    	  "meta": {
          "profile": [
            "http://hl7.org/fhir/us/qicore/StructureDefinition/qicore-condition"
          ]
        },
        "subject": {
                "reference": "Patient/DENEXPassMedTPAEDStart"
         },
         "verificationStatus": {
          "coding": [
            {
            "system": "http://terminology.hl7.org/CodeSystem/condition-ver-status",
            "code": "confirmed",
            "display": "Confirmed"
            }
          ]
          },
         "code": {
          "coding": [
            {
              "system": "http://snomed.info/sct",
              "version": "2020-09",
              "code": "111297002",
              "display": "Nonparalytic stroke (disorder)",
              "userSelected": true
            }
          ]
        },
        "recordedDate": "2022-08-13T08:00:00.000+00:00"
      }
    }
  ]
}