{
  "id": "DENEXCEPPassPharmContraDayOfEncStart",
  "resourceType": "Bundle",
  "type": "collection",
  "entry": [
    {
      "fullUrl": "DENEXCEPPassPharmContraDayOfEncStart",
      "resource": {
        "id": "DENEXCEPPassPharmContraDayOfEncStart",
        "meta": {
          "profile": [
            "http://hl7.org/fhir/us/qicore/StructureDefinition/qicore-patient"
          ]
        },
        "resourceType": "Patient",
        "text": {
          "status": "generated",
          "div": "<div xmlns=\"http://www.w3.org/1999/xhtml\"><div class=\"hapiHeaderText\">PharmContraDayOfEncStart_NoEDNoObsBFEnc <b>DENEXCEPPASS </b></div><table class=\"hapiPropertyTable\"><tbody><tr><td>Identifier</td><td>23ca8d220e136a05792f06f1300ec35c968458532c76c051729199b6b17df285</td></tr><tr><td>Date of birth</td><td><span>26 September 1975</span></td></tr></tbody></table></div>"
        },
        "extension": [
          {
            "extension": [
              {
                "url": "ombCategory",
                "valueCoding": {
                  "system": "urn:oid:2.16.840.1.113883.6.238",
                  "code": "2054-5",
                  "display": "Black or African American",
                  "userSelected": true
                }
              },
              {
                "url": "text",
                "valueString": "Black or African American"
              }
            ],
            "url": "http://hl7.org/fhir/us/core/StructureDefinition/us-core-race"
          },
          {
            "extension": [
              {
                "url": "ombCategory",
                "valueCoding": {
                  "system": "urn:oid:2.16.840.1.113883.6.238",
                  "code": "2186-5",
                  "display": "Not Hispanic or Latino",
                  "userSelected": true
                }
              },
              {
                "url": "text",
                "valueString": "Not Hispanic or Latino"
              }
            ],
            "url": "http://hl7.org/fhir/us/core/StructureDefinition/us-core-ethnicity"
          }
        ],
        "identifier": [
          {
            "type": {
              "coding": [
                {
                  "system": "http://terminology.hl7.org/CodeSystem/v2-0203",
                  "code": "MR"
                }
              ]
            },
            "system": "https://bonnie-fhir.healthit.gov/",
            "value": "DENEXCEPPassPharmContraDayOfEncStart"
          }
        ],
        "active": true,
        "name": [
          {
            "use": "usual",
            "family": "DENEXCEPPass",
            "given": [
              "PharmContraDayOfEncStart_NoEDNoObsBFEnc"
            ]
          }
        ],
        "gender": "female",
        "birthDate": "1975-09-26"
      }
    },
    {
      "fullUrl": "5c954894b848462de0ae62b3",
      "resource": {
        "id": "5c954894b848462de0ae62b3",
        "resourceType": "Encounter",
        "meta": {
          "profile": [
            "http://hl7.org/fhir/us/qicore/StructureDefinition/qicore-encounter"
          ]
        },
        "status": "finished",
        "class": {
          "system": "http://terminology.hl7.org/CodeSystem/v3-ActCode",
          "code": "IMP",
          "display": "inpatient encounter",
          "userSelected": true
        },
        "type": [
          {
            "coding": [
              {
                "system": "http://snomed.info/sct",
                "code": "32485007"
              }
            ]
          }
        ],
        "subject": {
          "reference": "Patient/DENEXCEPPassPharmContraDayOfEncStart"
        },
        "period": {
          "start": "2022-10-10T09:00:00+00:00",
          "end": "2022-10-12T11:15:00+00:00"
        },
        "length": {
          "value": "2.0",
          "unit": "days"
        },
        "diagnosis": [
          {
            "condition": {
              "reference": "Condition/ischemic-stroke-9f0b"
            },
            "use": {
              "coding": [
                {
                  "system": "http://snomed.info/sct",
                  "code": "111297002",
                  "display": "Ischemic Stroke"
                }
              ]
            },
            "rank": 1
          }
        ]
      }
    },
    {
      "fullUrl": "5de6c4035b87f90000eaf319",
      "resource": {
        "id": "5de6c4035b87f90000eaf319",
        "resourceType": "MedicationAdministration",
		"meta" : {
			"profile" : [
			  "http://hl7.org/fhir/us/qicore/StructureDefinition/qicore-medicationadministration"
			]
		},
		"status": "completed",
        "medicationCodeableConcept": {
          "coding": [
            {
              "system": "http://www.nlm.nih.gov/research/umls/rxnorm",
              "code": "855812",
              "display": "prasugrel 10 MG Oral Tablet",
              "userSelected": true
            }
          ]
        },
        "subject": {
          "reference": "Patient/DENEXCEPPassPharmContraDayOfEncStart"
        },
        "effectivePeriod": {
          "start": "2022-10-10T09:00:00+00:00"
        }
      }
    },
    {
      "fullUrl": "5e20a36f1c76ba6c5896ec03",
      "resource": {
        "id": "5e20a36f1c76ba6c5896ec03",
        "resourceType": "Coverage",
    	  "status": "active",
    	  "payor": {
          "reference": "Patient/DENEXCEPPassPharmContraDayOfEncStart"
        },
        "beneficiary": {
          "reference": "Patient/DENEXCEPPassPharmContraDayOfEncStart"
        },
        "period": {
          "start": "1975-09-26T08:00:00+00:00"
        }
      }
    },
    {
      "fullUrl": "ischemic-stroke-9f0b",
      "resource": {
        "id": "ischemic-stroke-9f0b",
        "resourceType": "Condition",
    	  "meta": {
    		"profile": [
    		  "http://hl7.org/fhir/us/qicore/StructureDefinition/qicore-condition"
    		]
    	  },
    	  "verificationStatus": {
    		"coding": [
    		  {
    			"system": "http://terminology.hl7.org/CodeSystem/condition-ver-status",
    			"code": "confirmed",
    			"display": "Confirmed"
    		  }
    		]
    	  },
		  "code": {
          "coding": [
            {
              "system": "http://snomed.info/sct",
              "version": "2020-09",
              "code": "111297002",
              "display": "Nonparalytic stroke (disorder)",
              "userSelected": true
            }
          ]
        },
    	"subject": {
			  "reference": "Patient/DENEXCEPPassPharmContraDayOfEncStart"
    	},
      "recordedDate": "2022-08-06T08:00:00.000+00:00"
      }
    }
  ]
}