{
  "resourceType": "Bundle",
  "id": "Patient-1-Pass-TwoOutpatientVisitsDifferentDays",
  "type": "transaction",
  "entry": [
    {
      "resource": {
        "resourceType": "Patient",
        "id": "Patient-1",
        "meta": {
          "profile": [
            "http://hl7.org/fhir/us/core/StructureDefinition/us-core-patient"
          ]
        },
        "extension": [
          {
            "url": "http://hl7.org/fhir/us/core/StructureDefinition/us-core-race",
            "extension": [
              {
                "url": "ombCategory",
                "valueCoding": {
                  "code": "2028-9",
                  "system": "urn:oid:2.16.840.1.113883.6.238",
                  "display": "Asian"
                }
              }
            ]
          },
          {
            "url": "http://hl7.org/fhir/us/core/StructureDefinition/us-core-ethnicity",
            "extension": [
              {
                "url": "ombCategory",
                "valueCoding": {
                  "code": "2135-2",
                  "system": "urn:oid:2.16.840.1.113883.6.238",
                  "display": "Hispanic or Latino"
                }
              }
            ]
          }
        ],
        "identifier": [
          {
            "system": "http://hospital.smarthealthit.org",
            "value": "999999995"
          }
        ],
        "name": [
          {
            "family": "Bertha",
            "given": [
              "Betty"
            ]
          }
        ],
        "birthDate": "1999-12-31",
        "gender": "female"
      }
    },
    {
      "resource": {
        "resourceType": "Encounter",
        "id": "Encounter-1",
        "subject": {
          "reference": "Patient/Patient-1"
        },
        "status": "finished",
        "class": {
          "code": "AMB",
          "system": "http://terminology.hl7.org/CodeSystem/v3-ActCode",
          "display": "ambulatory"
        },
        "type": [
          {
            "coding": [
              {
                "code": "4525004",
                "system": "http://snomed.info/sct",
                "display": "Emergency department patient visit (procedure)"
              }
            ]
          }
        ],
        "period": {
          "start": "2022-12-31T00:00:00.000Z",
          "end": "2023-01-01T01:00:00.000Z"
        },
        "diagnosis": [
          {
            "condition": {
              "reference": "Condition/Condition-1"
            }
          }
        ]
      }
    },
    {
      "resource": {
        "resourceType": "Condition",
        "id": "Condition-1",
        "subject": {
          "reference": "Patient/Patient-1"
        },
        "code": {
          "coding": [
            {
              "code": "101421000119107",
              "system": "http://snomed.info/sct",
              "display": "Dementia due to Parkinson's disease (disorder)"
            }
          ]
        },
        "onsetDateTime": "2022-12-31T23:59:00.000Z",
        "abatementDateTime": "2023-01-01T00:00:00.000Z",
        "clinicalStatus": {
          "coding": [
            {
              "code": "active",
              "system": "http://terminology.hl7.org/CodeSystem/condition-clinical"
            }
          ]
        }
      }
    },
    {
      "resource": {
        "resourceType": "Encounter",
        "id": "Encounter-1-0",
        "subject": {
          "reference": "Patient/Patient-1"
        },
        "status": "finished",
        "class": {
          "code": "AMB",
          "system": "http://terminology.hl7.org/CodeSystem/v3-ActCode",
          "display": "ambulatory"
        },
        "type": [
          {
            "coding": [
              {
                "code": "4525004",
                "system": "http://snomed.info/sct",
                "display": "Emergency department patient visit (procedure)"
              }
            ]
          }
        ],
        "period": {
          "start": "2023-05-01T00:00:00.000Z",
          "end": "2023-05-01T01:00:00.000Z"
        },
        "diagnosis": [
          {
            "condition": {
              "reference": "Condition/Condition-1"
            }
          }
        ]
      }
    }
  ]
}
